* superterrestrial solar spectral irradiance from C. Gueymard, 'Revised composite extraterrestrial spectrum based on recent solar irradiance observations', Solar Energy, 2018
* wavelength in um irradiance in mW cm^{-2} um^{-1}
* solar constant 136.11 mW cm^{-2}
   0.0005 2.2780E-04
   0.0015 1.2190E-02
   0.0025 1.5130E-03
   0.0035 2.5190E-03
   0.0045 3.7080E-03
   0.0055 4.6100E-03
   0.0065 4.3670E-03
   0.0075 3.1150E-03
   0.0085 2.8280E-03
   0.0095 1.6520E-03
   0.0105 6.7710E-04
   0.0115 3.3620E-04
   0.0125 1.7560E-04
   0.0135 1.9580E-04
   0.0145 2.1400E-03
   0.0155 1.6360E-03
   0.0165 3.3980E-03
   0.0175 5.0080E-02
   0.0185 2.8750E-02
   0.0195 2.0380E-02
   0.0205 1.9580E-02
   0.0215 9.4100E-03
   0.0225 1.0250E-02
   0.0235 2.2870E-03
   0.0245 4.7620E-03
   0.0255 1.1730E-02
   0.0265 4.0250E-03
   0.0275 8.4750E-03
   0.0285 8.5560E-03
   0.0295 4.3750E-03
   0.0305 6.2520E-02
   0.0315 1.1900E-02
   0.0325 1.5930E-02
   0.0335 1.5660E-02
   0.0345 6.9370E-03
   0.0355 5.9330E-03
   0.0365 8.0390E-03
   0.0375 1.3830E-03
   0.0385 5.9310E-04
   0.0395 5.8320E-04
   0.0405 9.7810E-04
   0.0415 1.8100E-03
   0.0425 4.7980E-04
   0.0435 1.1010E-03
   0.0445 4.3890E-04
   0.0455 4.8240E-04
   0.0465 1.7380E-03
   0.0475 6.9250E-04
   0.0485 1.1550E-03
   0.0495 3.9650E-03
   0.0505 1.6800E-03
   0.0515 5.7430E-04
   0.0525 9.8080E-04
   0.0535 7.4580E-04
   0.0545 4.8430E-04
   0.0555 2.1650E-03
   0.0565 6.5780E-04
   0.0575 6.5280E-04
   0.0585 3.6890E-03
   0.0595 7.7760E-04
   0.0605 3.1120E-03
   0.0615 9.7370E-04
   0.0625 4.2090E-03
   0.0635 1.0600E-03
   0.0645 2.4420E-04
   0.0655 1.9160E-04
   0.0665 1.7090E-04
   0.0675 1.7500E-04
   0.0685 6.0270E-04
   0.0695 4.4520E-04
   0.0705 1.1720E-03
   0.0715 5.1200E-04
   0.0725 3.8330E-04
   0.0735 4.9950E-04
   0.0745 6.1550E-04
   0.0755 9.4120E-04
   0.0765 2.3790E-03
   0.0775 2.1560E-03
   0.0785 3.0430E-03
   0.0795 1.4290E-03
   0.0805 1.4680E-03
   0.0815 1.6680E-03
   0.0825 2.4650E-03
   0.0835 4.2090E-03
   0.0845 3.0610E-03
   0.0855 3.4090E-03
   0.0865 3.6130E-03
   0.0875 4.3010E-03
   0.0885 4.9150E-03
   0.0895 5.9780E-03
   0.0905 7.0440E-03
   0.0915 5.3890E-03
   0.0925 1.9220E-03
   0.0935 1.6850E-03
   0.0945 1.2010E-03
   0.0955 6.9640E-04
   0.0965 7.2410E-04
   0.0975 1.2960E-02
   0.0985 1.4740E-03
   0.0995 2.2740E-03
   0.1005 9.2150E-04
   0.1015 1.0650E-03
   0.1025 9.7190E-03
   0.1035 1.0040E-02
   0.1045 1.4700E-03
   0.1055 1.2440E-03
   0.1065 1.1840E-03
   0.1075 1.2570E-03
   0.1085 2.1090E-03
   0.1095 1.4190E-03
   0.1105 1.5130E-03
   0.1115 1.3880E-03
   0.1125 1.5120E-03
   0.1135 1.1810E-03
   0.1145 7.9900E-04
   0.1155 1.3130E-03
   0.1165 1.4840E-03
   0.1175 6.3110E-03
   0.1185 1.6710E-03
   0.1195 5.5560E-03
   0.1205 1.6870E-02
   0.1215 8.1190E-01
   0.1225 5.9620E-03
   0.1235 4.2300E-03
   0.1245 3.2170E-03
   0.1255 3.0500E-03
   0.1265 4.4990E-03
   0.1275 2.3610E-03
   0.1285 1.9320E-03
   0.1295 2.2730E-03
   0.1305 1.8170E-02
   0.1315 2.9640E-03
   0.1325 2.2700E-03
   0.1335 2.1630E-02
   0.1345 2.0230E-03
   0.1355 4.6160E-03
   0.1365 2.9970E-03
   0.1375 3.1880E-03
   0.1385 3.1580E-03
   0.1395 9.2670E-03
   0.1405 7.6940E-03
   0.1415 4.5320E-03
   0.1425 4.8970E-03
   0.1435 5.7080E-03
   0.1445 5.5540E-03
   0.1455 5.9720E-03
   0.1465 7.4240E-03
   0.1475 9.2170E-03
   0.1485 9.3960E-03
   0.1495 8.4730E-03
   0.1505 9.4440E-03
   0.1515 1.0210E-02
   0.1525 1.2860E-02
   0.1535 1.4290E-02
   0.1545 2.5430E-02
   0.1555 2.1010E-02
   0.1565 2.1130E-02
   0.1575 1.9100E-02
   0.1585 1.8370E-02
   0.1595 1.8360E-02
   0.1605 2.0640E-02
   0.1615 2.4190E-02
   0.1625 2.7780E-02
   0.1635 3.0470E-02
   0.1645 3.3910E-02
   0.1655 5.2950E-02
   0.1665 3.6950E-02
   0.1675 4.3620E-02
   0.1685 4.8520E-02
   0.1695 6.3570E-02
   0.1705 7.3520E-02
   0.1715 7.3770E-02
   0.1725 7.9630E-02
   0.1735 7.9930E-02
   0.1745 9.8160E-02
   0.1755 1.2090E-01
   0.1765 1.3100E-01
   0.1775 1.5800E-01
   0.1785 1.7620E-01
   0.1795 1.7230E-01
   0.1805 2.0610E-01
   0.1815 2.4810E-01
   0.1825 2.3120E-01
   0.1835 2.4710E-01
   0.1845 2.1140E-01
   0.1855 2.4170E-01
   0.1865 2.7690E-01
   0.1875 3.2110E-01
   0.1885 3.4020E-01
   0.1895 3.8340E-01
   0.1905 3.9690E-01
   0.1915 4.3600E-01
   0.1925 4.6640E-01
   0.1935 3.5320E-01
   0.1945 5.9010E-01
   0.1955 5.7540E-01
   0.1965 6.5120E-01
   0.1975 6.6030E-01
   0.1985 6.6580E-01
   0.1995 7.2310E-01
   0.2000 7.1060E-01
   0.2005 7.3513E-01
   0.2010 8.0707E-01
   0.2015 8.4543E-01
   0.2020 8.7708E-01
   0.2025 8.4478E-01
   0.2030 9.1859E-01
   0.2035 9.4323E-01
   0.2040 9.9191E-01
   0.2045 1.0773E+00
   0.2050 1.0933E+00
   0.2055 1.0997E+00
   0.2060 1.1061E+00
   0.2065 1.1392E+00
   0.2070 1.2514E+00
   0.2075 1.3126E+00
   0.2080 1.3752E+00
   0.2085 1.5355E+00
   0.2090 1.8678E+00
   0.2095 2.1917E+00
   0.2100 2.5668E+00
   0.2105 2.8847E+00
   0.2110 3.1209E+00
   0.2115 3.4483E+00
   0.2120 3.6927E+00
   0.2125 2.9282E+00
   0.2130 3.2264E+00
   0.2135 3.2661E+00
   0.2140 3.8542E+00
   0.2145 4.2518E+00
   0.2150 3.9835E+00
   0.2155 3.7641E+00
   0.2160 3.4892E+00
   0.2165 3.3798E+00
   0.2170 3.4018E+00
   0.2175 3.4453E+00
   0.2180 4.3961E+00
   0.2185 4.6618E+00
   0.2190 4.6776E+00
   0.2195 4.9603E+00
   0.2200 5.1101E+00
   0.2205 5.1285E+00
   0.2210 3.7527E+00
   0.2215 4.0583E+00
   0.2220 4.4930E+00
   0.2225 5.1201E+00
   0.2230 5.8347E+00
   0.2235 6.6870E+00
   0.2240 6.3864E+00
   0.2245 6.0426E+00
   0.2250 5.7402E+00
   0.2255 5.2271E+00
   0.2260 4.6996E+00
   0.2265 3.8329E+00
   0.2270 3.5837E+00
   0.2275 3.7884E+00
   0.2280 4.8995E+00
   0.2285 5.4531E+00
   0.2290 4.9343E+00
   0.2295 4.9413E+00
   0.2300 4.3026E+00
   0.2305 5.5934E+00
   0.2310 5.3323E+00
   0.2315 5.0623E+00
   0.2320 5.1204E+00
   0.2325 5.5013E+00
   0.2330 4.9551E+00
   0.2335 4.5580E+00
   0.2340 4.1041E+00
   0.2345 3.4950E+00
   0.2350 4.4283E+00
   0.2355 5.5820E+00
   0.2360 4.8751E+00
   0.2365 4.7397E+00
   0.2370 5.0977E+00
   0.2375 4.9335E+00
   0.2380 4.4120E+00
   0.2385 3.9041E+00
   0.2390 4.5621E+00
   0.2395 4.3624E+00
   0.2400 4.3184E+00
   0.2405 3.9772E+00
   0.2410 4.0582E+00
   0.2415 4.9697E+00
   0.2420 6.4243E+00
   0.2425 7.0657E+00
   0.2430 7.0830E+00
   0.2435 6.4871E+00
   0.2440 6.6440E+00
   0.2445 6.3265E+00
   0.2450 5.4784E+00
   0.2455 4.9874E+00
   0.2460 4.9864E+00
   0.2465 4.9519E+00
   0.2470 5.4650E+00
   0.2475 5.7764E+00
   0.2480 5.1674E+00
   0.2485 4.5970E+00
   0.2490 4.2261E+00
   0.2495 5.7383E+00
   0.2500 6.3739E+00
   0.2505 5.9701E+00
   0.2510 5.5842E+00
   0.2515 4.6083E+00
   0.2520 4.1442E+00
   0.2525 4.0661E+00
   0.2530 4.5589E+00
   0.2535 5.2034E+00
   0.2540 5.5837E+00
   0.2545 5.9700E+00
   0.2550 6.4643E+00
   0.2555 8.2618E+00
   0.2560 8.9482E+00
   0.2565 9.6816E+00
   0.2570 1.2213E+01
   0.2575 1.2355E+01
   0.2580 1.3657E+01
   0.2585 1.2313E+01
   0.2590 1.2799E+01
   0.2595 1.0601E+01
   0.2600 8.3382E+00
   0.2605 9.2921E+00
   0.2610 8.2515E+00
   0.2615 8.6753E+00
   0.2620 1.0566E+01
   0.2625 1.1112E+01
   0.2630 9.4888E+00
   0.2635 1.5744E+01
   0.2640 2.4588E+01
   0.2645 2.6362E+01
   0.2650 2.3046E+01
   0.2655 2.6867E+01
   0.2660 2.6536E+01
   0.2665 2.5406E+01
   0.2670 2.4984E+01
   0.2675 2.6629E+01
   0.2680 2.5728E+01
   0.2685 2.5920E+01
   0.2690 2.4337E+01
   0.2695 2.4509E+01
   0.2700 2.6495E+01
   0.2705 2.8245E+01
   0.2710 2.6663E+01
   0.2715 2.4288E+01
   0.2720 1.7580E+01
   0.2725 1.9596E+01
   0.2730 2.3752E+01
   0.2735 2.0706E+01
   0.2740 1.5082E+01
   0.2745 1.3359E+01
   0.2750 1.4371E+01
   0.2755 1.8154E+01
   0.2760 2.3150E+01
   0.2765 2.5936E+01
   0.2770 2.5776E+01
   0.2775 2.5702E+01
   0.2780 1.9677E+01
   0.2785 1.6892E+01
   0.2790 1.2540E+01
   0.2795 8.1587E+00
   0.2800 7.8018E+00
   0.2805 9.7054E+00
   0.2810 1.5627E+01
   0.2815 2.2108E+01
   0.2820 2.7195E+01
   0.2825 3.0201E+01
   0.2830 3.2491E+01
   0.2835 3.1976E+01
   0.2840 3.0911E+01
   0.2845 2.4706E+01
   0.2850 1.4410E+01
   0.2855 1.4168E+01
   0.2860 2.6703E+01
   0.2865 3.3726E+01
   0.2870 3.6623E+01
   0.2875 3.5966E+01
   0.2880 2.9309E+01
   0.2885 3.4108E+01
   0.2890 4.1090E+01
   0.2895 4.8679E+01
   0.2900 5.8350E+01
   0.2905 6.2027E+01
   0.2910 6.0940E+01
   0.2915 5.8795E+01
   0.2920 5.5922E+01
   0.2925 5.2007E+01
   0.2930 5.4538E+01
   0.2935 5.6202E+01
   0.2940 5.2089E+01
   0.2945 5.2700E+01
   0.2950 5.1843E+01
   0.2955 5.6158E+01
   0.2960 5.8224E+01
   0.2965 5.1155E+01
   0.2970 4.3635E+01
   0.2975 5.3891E+01
   0.2980 5.4472E+01
   0.2985 3.9446E+01
   0.2990 5.1778E+01
   0.2995 5.0240E+01
   0.3000 4.4866E+01
   0.3005 4.2804E+01
   0.3010 4.6652E+01
   0.3015 4.9837E+01
   0.3020 4.3864E+01
   0.3025 5.3152E+01
   0.3030 6.3794E+01
   0.3035 6.5888E+01
   0.3040 6.0856E+01
   0.3045 6.3517E+01
   0.3050 6.4108E+01
   0.3055 6.1946E+01
   0.3060 5.4773E+01
   0.3065 5.7690E+01
   0.3070 6.1547E+01
   0.3075 6.4180E+01
   0.3080 6.4710E+01
   0.3085 6.5035E+01
   0.3090 5.6363E+01
   0.3095 5.0570E+01
   0.3100 4.9338E+01
   0.3105 6.6089E+01
   0.3110 7.7783E+01
   0.3115 7.5172E+01
   0.3120 6.5649E+01
   0.3125 6.7240E+01
   0.3130 6.9618E+01
   0.3135 7.1543E+01
   0.3140 7.5176E+01
   0.3145 6.2396E+01
   0.3150 7.0523E+01
   0.3155 6.5734E+01
   0.3160 5.5641E+01
   0.3165 6.5007E+01
   0.3170 7.7114E+01
   0.3175 8.2136E+01
   0.3180 6.5927E+01
   0.3185 6.6166E+01
   0.3190 7.2854E+01
   0.3195 6.9981E+01
   0.3200 8.1191E+01
   0.3205 8.5212E+01
   0.3210 7.4160E+01
   0.3215 6.8476E+01
   0.3220 7.6609E+01
   0.3225 6.9870E+01
   0.3230 6.4875E+01
   0.3235 6.7781E+01
   0.3240 7.4757E+01
   0.3245 7.9683E+01
   0.3250 8.0208E+01
   0.3255 9.2234E+01
   0.3260 1.0111E+02
   0.3265 9.9268E+01
   0.3270 9.9411E+01
   0.3275 9.7921E+01
   0.3280 9.4730E+01
   0.3285 9.2074E+01
   0.3290 9.9847E+01
   0.3295 1.1042E+02
   0.3300 1.1152E+02
   0.3305 9.8663E+01
   0.3310 9.8425E+01
   0.3315 9.6787E+01
   0.3320 9.9447E+01
   0.3325 9.5458E+01
   0.3330 9.5929E+01
   0.3335 9.2080E+01
   0.3340 9.3402E+01
   0.3345 1.0056E+02
   0.3350 9.5424E+01
   0.3355 9.9564E+01
   0.3360 8.1321E+01
   0.3365 8.5788E+01
   0.3370 7.7949E+01
   0.3375 8.9621E+01
   0.3380 9.0625E+01
   0.3385 9.3343E+01
   0.3390 9.6218E+01
   0.3395 9.3659E+01
   0.3400 1.0788E+02
   0.3405 1.0035E+02
   0.3410 9.5085E+01
   0.3415 8.8731E+01
   0.3420 1.0021E+02
   0.3425 9.5908E+01
   0.3430 1.0527E+02
   0.3435 9.8897E+01
   0.3440 8.2934E+01
   0.3445 7.6345E+01
   0.3450 9.3938E+01
   0.3455 9.8185E+01
   0.3460 9.0686E+01
   0.3465 9.5060E+01
   0.3470 9.7570E+01
   0.3475 8.7858E+01
   0.3480 9.2112E+01
   0.3485 9.4059E+01
   0.3490 8.9851E+01
   0.3495 8.9234E+01
   0.3500 1.0107E+02
   0.3505 1.0980E+02
   0.3510 1.0369E+02
   0.3515 9.7716E+01
   0.3520 1.0040E+02
   0.3525 8.7650E+01
   0.3530 1.0039E+02
   0.3535 1.0818E+02
   0.3540 1.1314E+02
   0.3545 1.1436E+02
   0.3550 1.1457E+02
   0.3555 1.0558E+02
   0.3560 1.0482E+02
   0.3565 9.3999E+01
   0.3570 8.1029E+01
   0.3575 8.8218E+01
   0.3580 7.7582E+01
   0.3585 6.7260E+01
   0.3590 8.7301E+01
   0.3595 1.0791E+02
   0.3600 1.1345E+02
   0.3605 9.8861E+01
   0.3610 8.9198E+01
   0.3615 9.6693E+01
   0.3620 9.1034E+01
   0.3625 1.0813E+02
   0.3630 1.0731E+02
   0.3635 9.8327E+01
   0.3640 1.1273E+02
   0.3645 1.0319E+02
   0.3650 1.0446E+02
   0.3655 1.2377E+02
   0.3660 1.2875E+02
   0.3665 1.2656E+02
   0.3670 1.2284E+02
   0.3675 1.2544E+02
   0.3680 1.1377E+02
   0.3685 1.1381E+02
   0.3690 1.1752E+02
   0.3695 1.2712E+02
   0.3700 1.3052E+02
   0.3705 1.1396E+02
   0.3710 1.1417E+02
   0.3715 1.2793E+02
   0.3720 1.0532E+02
   0.3725 1.0532E+02
   0.3730 1.0952E+02
   0.3735 8.3464E+01
   0.3740 9.6762E+01
   0.3745 9.2557E+01
   0.3750 8.8892E+01
   0.3755 1.1645E+02
   0.3760 1.0905E+02
   0.3765 1.1018E+02
   0.3770 1.1727E+02
   0.3775 1.3268E+02
   0.3780 1.4288E+02
   0.3785 1.3830E+02
   0.3790 1.1726E+02
   0.3795 1.0770E+02
   0.3800 1.0803E+02
   0.3805 1.2771E+02
   0.3810 1.2856E+02
   0.3815 1.0807E+02
   0.3820 9.3227E+01
   0.3825 7.9280E+01
   0.3830 7.1906E+01
   0.3835 6.9060E+01
   0.3840 7.9025E+01
   0.3845 1.0167E+02
   0.3850 1.0660E+02
   0.3855 1.0175E+02
   0.3860 9.3055E+01
   0.3865 1.0667E+02
   0.3870 9.9428E+01
   0.3875 1.0144E+02
   0.3880 9.9704E+01
   0.3885 9.8391E+01
   0.3890 1.0475E+02
   0.3895 1.2267E+02
   0.3900 1.2617E+02
   0.3905 1.2078E+02
   0.3910 1.3438E+02
   0.3915 1.3973E+02
   0.3920 1.2266E+02
   0.3925 1.0542E+02
   0.3930 6.6923E+01
   0.3935 4.8483E+01
   0.3940 7.8917E+01
   0.3945 1.0726E+02
   0.3950 1.2890E+02
   0.3955 1.3439E+02
   0.3960 1.1796E+02
   0.3965 7.5771E+01
   0.3970 6.0611E+01
   0.3975 9.9812E+01
   0.3980 1.4212E+02
   0.3985 1.5264E+02
   0.3990 1.6513E+02
   0.3995 1.6769E+02
   0.4000 1.6894E+02
   0.4010 1.7260E+02
   0.4020 1.7762E+02
   0.4030 1.7221E+02
   0.4040 1.7124E+02
   0.4050 1.6800E+02
   0.4060 1.6426E+02
   0.4070 1.6377E+02
   0.4080 1.6857E+02
   0.4090 1.8142E+02
   0.4100 1.5852E+02
   0.4110 1.7391E+02
   0.4120 1.8392E+02
   0.4130 1.7614E+02
   0.4140 1.7941E+02
   0.4150 1.7736E+02
   0.4160 1.8277E+02
   0.4170 1.7656E+02
   0.4180 1.7253E+02
   0.4190 1.7414E+02
   0.4200 1.7068E+02
   0.4210 1.8074E+02
   0.4220 1.7488E+02
   0.4230 1.6699E+02
   0.4240 1.7269E+02
   0.4250 1.7289E+02
   0.4260 1.6924E+02
   0.4270 1.6530E+02
   0.4280 1.6562E+02
   0.4290 1.5675E+02
   0.4300 1.3401E+02
   0.4310 1.3392E+02
   0.4320 1.7429E+02
   0.4330 1.7467E+02
   0.4340 1.6088E+02
   0.4350 1.7490E+02
   0.4360 1.8619E+02
   0.4370 1.8585E+02
   0.4380 1.7114E+02
   0.4390 1.7195E+02
   0.4400 1.8030E+02
   0.4410 1.8488E+02
   0.4420 1.9622E+02
   0.4430 1.9568E+02
   0.4440 1.9739E+02
   0.4450 1.9635E+02
   0.4460 1.8673E+02
   0.4470 1.9883E+02
   0.4480 2.0268E+02
   0.4490 2.0335E+02
   0.4500 2.0736E+02
   0.4510 2.1488E+02
   0.4520 2.0779E+02
   0.4530 1.9367E+02
   0.4540 2.0276E+02
   0.4550 1.9989E+02
   0.4560 2.0687E+02
   0.4570 2.0961E+02
   0.4580 2.0557E+02
   0.4590 2.0423E+02
   0.4600 2.0306E+02
   0.4610 2.0901E+02
   0.4620 2.1021E+02
   0.4630 2.1000E+02
   0.4640 2.0682E+02
   0.4650 2.0239E+02
   0.4660 2.0357E+02
   0.4670 1.9916E+02
   0.4680 2.0237E+02
   0.4690 2.0338E+02
   0.4700 1.9850E+02
   0.4710 1.9792E+02
   0.4720 2.0815E+02
   0.4730 2.0410E+02
   0.4740 2.0548E+02
   0.4750 2.0768E+02
   0.4760 2.0314E+02
   0.4770 2.0553E+02
   0.4780 2.0991E+02
   0.4790 2.0626E+02
   0.4800 2.0879E+02
   0.4810 2.0806E+02
   0.4820 2.1029E+02
   0.4830 2.0654E+02
   0.4840 2.0114E+02
   0.4850 1.9699E+02
   0.4860 1.6972E+02
   0.4870 1.7998E+02
   0.4880 1.9407E+02
   0.4890 1.9408E+02
   0.4900 2.0384E+02
   0.4910 2.0025E+02
   0.4920 1.9041E+02
   0.4930 1.9699E+02
   0.4940 1.9774E+02
   0.4950 2.0370E+02
   0.4960 1.9875E+02
   0.4970 2.0169E+02
   0.4980 1.9625E+02
   0.4990 1.9488E+02
   0.5000 1.9316E+02
   0.5010 1.8820E+02
   0.5020 1.8849E+02
   0.5030 1.9351E+02
   0.5040 1.9193E+02
   0.5050 1.9500E+02
   0.5060 2.0115E+02
   0.5070 1.9471E+02
   0.5080 1.8941E+02
   0.5090 1.9418E+02
   0.5100 1.9161E+02
   0.5110 1.9383E+02
   0.5120 1.9573E+02
   0.5130 1.8682E+02
   0.5140 1.8472E+02
   0.5150 1.8608E+02
   0.5160 1.8422E+02
   0.5170 1.6269E+02
   0.5180 1.7088E+02
   0.5190 1.7517E+02
   0.5200 1.8367E+02
   0.5210 1.8508E+02
   0.5220 1.8746E+02
   0.5230 1.8292E+02
   0.5240 1.9232E+02
   0.5250 1.9194E+02
   0.5260 1.8403E+02
   0.5270 1.7218E+02
   0.5280 1.8638E+02
   0.5290 1.9434E+02
   0.5300 1.9224E+02
   0.5310 1.9600E+02
   0.5320 1.9038E+02
   0.5330 1.8253E+02
   0.5340 1.8867E+02
   0.5350 1.9023E+02
   0.5360 1.9408E+02
   0.5370 1.8681E+02
   0.5380 1.8973E+02
   0.5390 1.8820E+02
   0.5400 1.8122E+02
   0.5410 1.8091E+02
   0.5420 1.8776E+02
   0.5430 1.8472E+02
   0.5440 1.8962E+02
   0.5450 1.8868E+02
   0.5460 1.8920E+02
   0.5470 1.8742E+02
   0.5480 1.8591E+02
   0.5490 1.8800E+02
   0.5500 1.8815E+02
   0.5510 1.8697E+02
   0.5520 1.8816E+02
   0.5530 1.8531E+02
   0.5540 1.8848E+02
   0.5550 1.8944E+02
   0.5560 1.8658E+02
   0.5570 1.8283E+02
   0.5580 1.8361E+02
   0.5590 1.7952E+02
   0.5600 1.8158E+02
   0.5610 1.8486E+02
   0.5620 1.8216E+02
   0.5630 1.8565E+02
   0.5640 1.8402E+02
   0.5650 1.8365E+02
   0.5660 1.7866E+02
   0.5670 1.8446E+02
   0.5680 1.8399E+02
   0.5690 1.8273E+02
   0.5700 1.8303E+02
   0.5710 1.7755E+02
   0.5720 1.8459E+02
   0.5730 1.8712E+02
   0.5740 1.8656E+02
   0.5750 1.8364E+02
   0.5760 1.8279E+02
   0.5770 1.8433E+02
   0.5780 1.8133E+02
   0.5790 1.8131E+02
   0.5800 1.8285E+02
   0.5810 1.8262E+02
   0.5820 1.8479E+02
   0.5830 1.8480E+02
   0.5840 1.8442E+02
   0.5850 1.8167E+02
   0.5860 1.7792E+02
   0.5870 1.8152E+02
   0.5880 1.7973E+02
   0.5890 1.6621E+02
   0.5900 1.7225E+02
   0.5910 1.7882E+02
   0.5920 1.7934E+02
   0.5930 1.7833E+02
   0.5940 1.7848E+02
   0.5950 1.7688E+02
   0.5960 1.7797E+02
   0.5970 1.7870E+02
   0.5980 1.7636E+02
   0.5990 1.7579E+02
   0.6000 1.7543E+02
   0.6010 1.7415E+02
   0.6020 1.7274E+02
   0.6030 1.7368E+02
   0.6040 1.7662E+02
   0.6050 1.7633E+02
   0.6060 1.7499E+02
   0.6070 1.7502E+02
   0.6080 1.7368E+02
   0.6090 1.7251E+02
   0.6100 1.7166E+02
   0.6110 1.7164E+02
   0.6120 1.7161E+02
   0.6130 1.6957E+02
   0.6140 1.6737E+02
   0.6150 1.6979E+02
   0.6160 1.6545E+02
   0.6170 1.6439E+02
   0.6180 1.6950E+02
   0.6190 1.6893E+02
   0.6200 1.6992E+02
   0.6210 1.7036E+02
   0.6220 1.6864E+02
   0.6230 1.6710E+02
   0.6240 1.6462E+02
   0.6250 1.6352E+02
   0.6260 1.6440E+02
   0.6270 1.6774E+02
   0.6280 1.6811E+02
   0.6290 1.6780E+02
   0.6300 1.6532E+02
   0.6310 1.6486E+02
   0.6320 1.6245E+02
   0.6330 1.6523E+02
   0.6340 1.6343E+02
   0.6350 1.6462E+02
   0.6360 1.6229E+02
   0.6370 1.6423E+02
   0.6380 1.6445E+02
   0.6390 1.6394E+02
   0.6400 1.6136E+02
   0.6410 1.6052E+02
   0.6420 1.6027E+02
   0.6430 1.6141E+02
   0.6440 1.6034E+02
   0.6450 1.6102E+02
   0.6460 1.5967E+02
   0.6470 1.5923E+02
   0.6480 1.5929E+02
   0.6490 1.5718E+02
   0.6500 1.5423E+02
   0.6510 1.6032E+02
   0.6520 1.5909E+02
   0.6530 1.5847E+02
   0.6540 1.5590E+02
   0.6550 1.5243E+02
   0.6560 1.3780E+02
   0.6570 1.3779E+02
   0.6580 1.5190E+02
   0.6590 1.5422E+02
   0.6600 1.5442E+02
   0.6610 1.5539E+02
   0.6620 1.5548E+02
   0.6630 1.5393E+02
   0.6640 1.5286E+02
   0.6650 1.5349E+02
   0.6660 1.5278E+02
   0.6670 1.5241E+02
   0.6680 1.5269E+02
   0.6690 1.5408E+02
   0.6700 1.5256E+02
   0.6710 1.5202E+02
   0.6720 1.5086E+02
   0.6730 1.5205E+02
   0.6740 1.5167E+02
   0.6750 1.5033E+02
   0.6760 1.5083E+02
   0.6770 1.5015E+02
   0.6780 1.5006E+02
   0.6790 1.4916E+02
   0.6800 1.4807E+02
   0.6810 1.4852E+02
   0.6820 1.4831E+02
   0.6830 1.4774E+02
   0.6840 1.4705E+02
   0.6850 1.4571E+02
   0.6860 1.4425E+02
   0.6870 1.4718E+02
   0.6880 1.4719E+02
   0.6890 1.4705E+02
   0.6900 1.4657E+02
   0.6910 1.4562E+02
   0.6920 1.4441E+02
   0.6930 1.4476E+02
   0.6940 1.4476E+02
   0.6950 1.4435E+02
   0.6960 1.4450E+02
   0.6970 1.4435E+02
   0.6980 1.4210E+02
   0.6990 1.4371E+02
   0.7000 1.4117E+02
   0.7010 1.3857E+02
   0.7020 1.3872E+02
   0.7030 1.3926E+02
   0.7040 1.4086E+02
   0.7050 1.4185E+02
   0.7060 1.4092E+02
   0.7070 1.3931E+02
   0.7080 1.4007E+02
   0.7090 1.3847E+02
   0.7100 1.3924E+02
   0.7110 1.3875E+02
   0.7120 1.3800E+02
   0.7130 1.3723E+02
   0.7140 1.3753E+02
   0.7150 1.3560E+02
   0.7160 1.3590E+02
   0.7170 1.3467E+02
   0.7180 1.3429E+02
   0.7190 1.3279E+02
   0.7200 1.3473E+02
   0.7210 1.3370E+02
   0.7220 1.3413E+02
   0.7230 1.3505E+02
   0.7240 1.3498E+02
   0.7250 1.3430E+02
   0.7260 1.3426E+02
   0.7270 1.3464E+02
   0.7280 1.3211E+02
   0.7290 1.3054E+02
   0.7300 1.3231E+02
   0.7310 1.3182E+02
   0.7320 1.3205E+02
   0.7330 1.3139E+02
   0.7340 1.3218E+02
   0.7350 1.3105E+02
   0.7360 1.3039E+02
   0.7370 1.3066E+02
   0.7380 1.2958E+02
   0.7390 1.2729E+02
   0.7400 1.2760E+02
   0.7410 1.2599E+02
   0.7420 1.2640E+02
   0.7430 1.2855E+02
   0.7440 1.2839E+02
   0.7450 1.2749E+02
   0.7460 1.2858E+02
   0.7470 1.2864E+02
   0.7480 1.2801E+02
   0.7490 1.2716E+02
   0.7500 1.2628E+02
   0.7510 1.2588E+02
   0.7520 1.2614E+02
   0.7530 1.2564E+02
   0.7540 1.2646E+02
   0.7550 1.2597E+02
   0.7560 1.2523E+02
   0.7570 1.2493E+02
   0.7580 1.2474E+02
   0.7590 1.2401E+02
   0.7600 1.2418E+02
   0.7610 1.2364E+02
   0.7620 1.2265E+02
   0.7630 1.2401E+02
   0.7640 1.2357E+02
   0.7650 1.2266E+02
   0.7660 1.1905E+02
   0.7670 1.1920E+02
   0.7680 1.2138E+02
   0.7690 1.2077E+02
   0.7700 1.2021E+02
   0.7710 1.2020E+02
   0.7720 1.1987E+02
   0.7730 1.2008E+02
   0.7740 1.1985E+02
   0.7750 1.1778E+02
   0.7760 1.1955E+02
   0.7770 1.1920E+02
   0.7780 1.1814E+02
   0.7790 1.1822E+02
   0.7800 1.1785E+02
   0.7810 1.1797E+02
   0.7820 1.1811E+02
   0.7830 1.1691E+02
   0.7840 1.1685E+02
   0.7850 1.1716E+02
   0.7860 1.1668E+02
   0.7870 1.1709E+02
   0.7880 1.1676E+02
   0.7890 1.1695E+02
   0.7900 1.1640E+02
   0.7910 1.1534E+02
   0.7920 1.1420E+02
   0.7930 1.1338E+02
   0.7940 1.1209E+02
   0.7950 1.1267E+02
   0.7960 1.1406E+02
   0.7970 1.1443E+02
   0.7980 1.1418E+02
   0.7990 1.1347E+02
   0.8000 1.1232E+02
   0.8010 1.1341E+02
   0.8020 1.1312E+02
   0.8030 1.1214E+02
   0.8040 1.1197E+02
   0.8050 1.1055E+02
   0.8060 1.1188E+02
   0.8070 1.1148E+02
   0.8080 1.1080E+02
   0.8090 1.0983E+02
   0.8100 1.0999E+02
   0.8110 1.1044E+02
   0.8120 1.1044E+02
   0.8130 1.1045E+02
   0.8140 1.1006E+02
   0.8150 1.0962E+02
   0.8160 1.0936E+02
   0.8170 1.0899E+02
   0.8180 1.0774E+02
   0.8190 1.0660E+02
   0.8200 1.0625E+02
   0.8210 1.0647E+02
   0.8220 1.0602E+02
   0.8230 1.0696E+02
   0.8240 1.0710E+02
   0.8250 1.0674E+02
   0.8260 1.0697E+02
   0.8270 1.0742E+02
   0.8280 1.0697E+02
   0.8290 1.0594E+02
   0.8300 1.0579E+02
   0.8310 1.0504E+02
   0.8320 1.0497E+02
   0.8330 1.0277E+02
   0.8340 1.0335E+02
   0.8350 1.0418E+02
   0.8360 1.0479E+02
   0.8370 1.0435E+02
   0.8380 1.0379E+02
   0.8390 1.0261E+02
   0.8400 1.0383E+02
   0.8410 1.0388E+02
   0.8420 1.0237E+02
   0.8430 1.0193E+02
   0.8440 1.0143E+02
   0.8450 1.0258E+02
   0.8460 1.0262E+02
   0.8470 1.0102E+02
   0.8480 1.0060E+02
   0.8490 9.7767E+01
   0.8500 9.3813E+01
   0.8510 9.8998E+01
   0.8520 9.8057E+01
   0.8530 9.6334E+01
   0.8540 8.3742E+01
   0.8550 8.7117E+01
   0.8560 9.7659E+01
   0.8570 9.9209E+01
   0.8580 9.9121E+01
   0.8590 9.8787E+01
   0.8600 9.8422E+01
   0.8610 9.8529E+01
   0.8620 9.8876E+01
   0.8630 9.8552E+01
   0.8640 9.7768E+01
   0.8650 9.6484E+01
   0.8660 8.8764E+01
   0.8670 9.0537E+01
   0.8680 9.4887E+01
   0.8690 9.5789E+01
   0.8700 9.6829E+01
   0.8710 9.6698E+01
   0.8720 9.5973E+01
   0.8730 9.6563E+01
   0.8740 9.5538E+01
   0.8750 9.3907E+01
   0.8760 9.4423E+01
   0.8770 9.5128E+01
   0.8780 9.6433E+01
   0.8790 9.5057E+01
   0.8800 9.4201E+01
   0.8810 9.2197E+01
   0.8820 9.3997E+01
   0.8830 9.4158E+01
   0.8840 9.3964E+01
   0.8850 9.4291E+01
   0.8860 9.1356E+01
   0.8870 9.1418E+01
   0.8880 9.3137E+01
   0.8890 9.3244E+01
   0.8900 9.3372E+01
   0.8910 9.3271E+01
   0.8920 9.2297E+01
   0.8930 9.0870E+01
   0.8940 9.1790E+01
   0.8950 9.0710E+01
   0.8960 9.2381E+01
   0.8970 9.0961E+01
   0.8980 9.1158E+01
   0.8990 9.0739E+01
   0.9000 8.8985E+01
   0.9010 8.7880E+01
   0.9020 8.7258E+01
   0.9030 8.9687E+01
   0.9040 9.0421E+01
   0.9050 8.9687E+01
   0.9060 8.8216E+01
   0.9070 8.8437E+01
   0.9080 8.7428E+01
   0.9090 8.6427E+01
   0.9100 8.7222E+01
   0.9110 8.7338E+01
   0.9120 8.7088E+01
   0.9130 8.8238E+01
   0.9140 8.7658E+01
   0.9150 8.6954E+01
   0.9160 8.7149E+01
   0.9170 8.6658E+01
   0.9180 8.6663E+01
   0.9190 8.6637E+01
   0.9200 8.5966E+01
   0.9210 8.4215E+01
   0.9220 8.3765E+01
   0.9230 8.2756E+01
   0.9240 8.3888E+01
   0.9250 8.3889E+01
   0.9260 8.3283E+01
   0.9270 8.5004E+01
   0.9280 8.5448E+01
   0.9290 8.4394E+01
   0.9300 8.4513E+01
   0.9310 8.4576E+01
   0.9320 8.4086E+01
   0.9330 8.4509E+01
   0.9340 8.4443E+01
   0.9350 8.3429E+01
   0.9360 8.2852E+01
   0.9370 8.3481E+01
   0.9380 8.3105E+01
   0.9390 8.2599E+01
   0.9400 8.1856E+01
   0.9410 8.0358E+01
   0.9420 8.0350E+01
   0.9430 8.1324E+01
   0.9440 8.0931E+01
   0.9450 8.1296E+01
   0.9460 8.1591E+01
   0.9470 8.1331E+01
   0.9480 8.1450E+01
   0.9490 8.1481E+01
   0.9500 8.1176E+01
   0.9510 8.0907E+01
   0.9520 8.0736E+01
   0.9530 8.0145E+01
   0.9540 7.8527E+01
   0.9550 7.7339E+01
   0.9560 7.9470E+01
   0.9570 7.9329E+01
   0.9580 7.9686E+01
   0.9590 7.9814E+01
   0.9600 7.8965E+01
   0.9610 7.8862E+01
   0.9620 7.8619E+01
   0.9630 7.8310E+01
   0.9640 7.8199E+01
   0.9650 7.8007E+01
   0.9660 7.7514E+01
   0.9670 7.8016E+01
   0.9680 7.7815E+01
   0.9690 7.7764E+01
   0.9700 7.7633E+01
   0.9710 7.7295E+01
   0.9720 7.7508E+01
   0.9730 7.7186E+01
   0.9740 7.6446E+01
   0.9750 7.6649E+01
   0.9760 7.6611E+01
   0.9770 7.6248E+01
   0.9780 7.6356E+01
   0.9790 7.5757E+01
   0.9800 7.5916E+01
   0.9810 7.6194E+01
   0.9820 7.5982E+01
   0.9830 7.5761E+01
   0.9840 7.5329E+01
   0.9850 7.5560E+01
   0.9860 7.5089E+01
   0.9870 7.4801E+01
   0.9880 7.4894E+01
   0.9890 7.4060E+01
   0.9900 7.4308E+01
   0.9910 7.4346E+01
   0.9920 7.4236E+01
   0.9930 7.4116E+01
   0.9940 7.4054E+01
   0.9950 7.3757E+01
   0.9960 7.3689E+01
   0.9970 7.3751E+01
   0.9980 7.3543E+01
   0.9990 7.3118E+01
   1.0000 7.3018E+01
   1.0010 7.3322E+01
   1.0020 7.2979E+01
   1.0030 7.2192E+01
   1.0040 7.1466E+01
   1.0050 6.8425E+01
   1.0060 7.0476E+01
   1.0070 7.1676E+01
   1.0080 7.1868E+01
   1.0090 7.1725E+01
   1.0100 7.1763E+01
   1.0110 7.1497E+01
   1.0120 7.1375E+01
   1.0130 7.1302E+01
   1.0140 7.1071E+01
   1.0150 7.0585E+01
   1.0160 7.0508E+01
   1.0170 7.0351E+01
   1.0180 7.0270E+01
   1.0190 6.9617E+01
   1.0200 6.9789E+01
   1.0210 6.9750E+01
   1.0220 6.9420E+01
   1.0230 6.9843E+01
   1.0240 6.9773E+01
   1.0250 6.9654E+01
   1.0260 6.9550E+01
   1.0270 6.9377E+01
   1.0280 6.9328E+01
   1.0290 6.8813E+01
   1.0300 6.8768E+01
   1.0310 6.8660E+01
   1.0320 6.8523E+01
   1.0330 6.7797E+01
   1.0340 6.7680E+01
   1.0350 6.7611E+01
   1.0360 6.7933E+01
   1.0370 6.7275E+01
   1.0380 6.7055E+01
   1.0390 6.7388E+01
   1.0400 6.6968E+01
   1.0410 6.7223E+01
   1.0420 6.6928E+01
   1.0430 6.6652E+01
   1.0440 6.6805E+01
   1.0450 6.6356E+01
   1.0460 6.5377E+01
   1.0470 6.5855E+01
   1.0480 6.6229E+01
   1.0490 6.6140E+01
   1.0500 6.5837E+01
   1.0510 6.5805E+01
   1.0520 6.5530E+01
   1.0530 6.5254E+01
   1.0540 6.5142E+01
   1.0550 6.5280E+01
   1.0560 6.5160E+01
   1.0570 6.5054E+01
   1.0580 6.4313E+01
   1.0590 6.3701E+01
   1.0600 6.4118E+01
   1.0610 6.3753E+01
   1.0620 6.4223E+01
   1.0630 6.3781E+01
   1.0640 6.4249E+01
   1.0650 6.4116E+01
   1.0660 6.3181E+01
   1.0670 6.3224E+01
   1.0680 6.2765E+01
   1.0690 6.0938E+01
   1.0700 6.2121E+01
   1.0710 6.2771E+01
   1.0720 6.2764E+01
   1.0730 6.1802E+01
   1.0740 6.2561E+01
   1.0750 6.1715E+01
   1.0760 6.2214E+01
   1.0770 6.2393E+01
   1.0780 6.1809E+01
   1.0790 6.1301E+01
   1.0800 6.2045E+01
   1.0810 6.0837E+01
   1.0820 6.0190E+01
   1.0830 6.0235E+01
   1.0840 6.1111E+01
   1.0850 6.1253E+01
   1.0860 6.1115E+01
   1.0870 5.9556E+01
   1.0880 6.0277E+01
   1.0890 6.0129E+01
   1.0900 6.0456E+01
   1.0910 6.0591E+01
   1.0920 5.9859E+01
   1.0930 5.8996E+01
   1.0940 5.6286E+01
   1.0950 5.8303E+01
   1.0960 5.8387E+01
   1.0970 5.8548E+01
   1.0980 5.7764E+01
   1.0990 5.9005E+01
   1.1000 5.9128E+01
   1.1010 5.8776E+01
   1.1020 5.7838E+01
   1.1030 5.8765E+01
   1.1040 5.8724E+01
   1.1050 5.8491E+01
   1.1060 5.8470E+01
   1.1070 5.8410E+01
   1.1080 5.8278E+01
   1.1090 5.8302E+01
   1.1100 5.8162E+01
   1.1110 5.7864E+01
   1.1120 5.7696E+01
   1.1130 5.7563E+01
   1.1140 5.7764E+01
   1.1150 5.7431E+01
   1.1160 5.7447E+01
   1.1170 5.7539E+01
   1.1180 5.7257E+01
   1.1190 5.6833E+01
   1.1200 5.6771E+01
   1.1210 5.6696E+01
   1.1220 5.6820E+01
   1.1230 5.6747E+01
   1.1240 5.6551E+01
   1.1250 5.5385E+01
   1.1260 5.5577E+01
   1.1270 5.6009E+01
   1.1280 5.6033E+01
   1.1290 5.5596E+01
   1.1300 5.5380E+01
   1.1310 5.5621E+01
   1.1320 5.5544E+01
   1.1330 5.5026E+01
   1.1340 5.5295E+01
   1.1350 5.5454E+01
   1.1360 5.5299E+01
   1.1370 5.4994E+01
   1.1380 5.4404E+01
   1.1390 5.4280E+01
   1.1400 5.4041E+01
   1.1410 5.3717E+01
   1.1420 5.4308E+01
   1.1430 5.4212E+01
   1.1440 5.3905E+01
   1.1450 5.4283E+01
   1.1460 5.4293E+01
   1.1470 5.4245E+01
   1.1480 5.3975E+01
   1.1490 5.3837E+01
   1.1500 5.3801E+01
   1.1510 5.3753E+01
   1.1520 5.3535E+01
   1.1530 5.3416E+01
   1.1540 5.3502E+01
   1.1550 5.3382E+01
   1.1560 5.3199E+01
   1.1570 5.3177E+01
   1.1580 5.3025E+01
   1.1590 5.2272E+01
   1.1600 5.2134E+01
   1.1610 5.1456E+01
   1.1620 5.2197E+01
   1.1630 5.2529E+01
   1.1640 5.1720E+01
   1.1650 5.2054E+01
   1.1660 5.1738E+01
   1.1670 5.1789E+01
   1.1680 5.2055E+01
   1.1690 5.1255E+01
   1.1700 5.1630E+01
   1.1710 5.1897E+01
   1.1720 5.1790E+01
   1.1730 5.1618E+01
   1.1740 5.1385E+01
   1.1750 5.0654E+01
   1.1760 5.0851E+01
   1.1770 5.1036E+01
   1.1780 5.0576E+01
   1.1790 5.0891E+01
   1.1800 5.1007E+01
   1.1810 5.0726E+01
   1.1820 5.0452E+01
   1.1830 4.9189E+01
   1.1840 5.0068E+01
   1.1850 5.0433E+01
   1.1860 5.0270E+01
   1.1870 5.0462E+01
   1.1880 4.9450E+01
   1.1890 4.8898E+01
   1.1900 4.9639E+01
   1.1910 5.0049E+01
   1.1920 4.9861E+01
   1.1930 4.9758E+01
   1.1940 4.9735E+01
   1.1950 4.9282E+01
   1.1960 4.9149E+01
   1.1970 4.8732E+01
   1.1980 4.7823E+01
   1.1990 4.7297E+01
   1.2000 4.8711E+01
   1.2010 4.9120E+01
   1.2020 4.8894E+01
   1.2030 4.7733E+01
   1.2040 4.7637E+01
   1.2050 4.8562E+01
   1.2060 4.8532E+01
   1.2070 4.8618E+01
   1.2080 4.7442E+01
   1.2090 4.6692E+01
   1.2100 4.7706E+01
   1.2110 4.7440E+01
   1.2120 4.7958E+01
   1.2130 4.7992E+01
   1.2140 4.7901E+01
   1.2150 4.7994E+01
   1.2160 4.7896E+01
   1.2170 4.7784E+01
   1.2180 4.7661E+01
   1.2190 4.7449E+01
   1.2200 4.7494E+01
   1.2210 4.7405E+01
   1.2220 4.7202E+01
   1.2230 4.7102E+01
   1.2240 4.7092E+01
   1.2250 4.6966E+01
   1.2260 4.6963E+01
   1.2270 4.6392E+01
   1.2280 4.6629E+01
   1.2290 4.6821E+01
   1.2300 4.6510E+01
   1.2310 4.6465E+01
   1.2320 4.6249E+01
   1.2330 4.6369E+01
   1.2340 4.6258E+01
   1.2350 4.6020E+01
   1.2360 4.6044E+01
   1.2370 4.6146E+01
   1.2380 4.6139E+01
   1.2390 4.5692E+01
   1.2400 4.5520E+01
   1.2410 4.5732E+01
   1.2420 4.5572E+01
   1.2430 4.5167E+01
   1.2440 4.5306E+01
   1.2450 4.5564E+01
   1.2460 4.5142E+01
   1.2470 4.5121E+01
   1.2480 4.5133E+01
   1.2490 4.5120E+01
   1.2500 4.5052E+01
   1.2510 4.4773E+01
   1.2520 4.4513E+01
   1.2530 4.4466E+01
   1.2540 4.4513E+01
   1.2550 4.4428E+01
   1.2560 4.4430E+01
   1.2570 4.4154E+01
   1.2580 4.4157E+01
   1.2590 4.4116E+01
   1.2600 4.4181E+01
   1.2610 4.4033E+01
   1.2620 4.3751E+01
   1.2630 4.4078E+01
   1.2640 4.3636E+01
   1.2650 4.3598E+01
   1.2660 4.3707E+01
   1.2670 4.3305E+01
   1.2680 4.3098E+01
   1.2690 4.3207E+01
   1.2700 4.3300E+01
   1.2710 4.3351E+01
   1.2720 4.3296E+01
   1.2730 4.3130E+01
   1.2740 4.3011E+01
   1.2750 4.3037E+01
   1.2760 4.3060E+01
   1.2770 4.2979E+01
   1.2780 4.2762E+01
   1.2790 4.2569E+01
   1.2800 4.2220E+01
   1.2810 4.0781E+01
   1.2820 3.8384E+01
   1.2830 4.0280E+01
   1.2840 4.1832E+01
   1.2850 4.2069E+01
   1.2860 4.2139E+01
   1.2870 4.2229E+01
   1.2880 4.1976E+01
   1.2890 4.2176E+01
   1.2900 4.1763E+01
   1.2910 4.1820E+01
   1.2920 4.1799E+01
   1.2930 4.1848E+01
   1.2940 4.1651E+01
   1.2950 4.1653E+01
   1.2960 4.1607E+01
   1.2970 4.1485E+01
   1.2980 4.1250E+01
   1.2990 4.1440E+01
   1.3000 4.1308E+01
   1.3010 4.1170E+01
   1.3020 4.0954E+01
   1.3030 4.0829E+01
   1.3040 4.0781E+01
   1.3050 4.0889E+01
   1.3060 4.1002E+01
   1.3070 4.0725E+01
   1.3080 4.0636E+01
   1.3090 4.0702E+01
   1.3100 4.0546E+01
   1.3110 4.0437E+01
   1.3120 3.9783E+01
   1.3130 3.9511E+01
   1.3140 4.0331E+01
   1.3150 3.9270E+01
   1.3160 3.9234E+01
   1.3170 3.9961E+01
   1.3180 3.9758E+01
   1.3190 3.9953E+01
   1.3200 3.9821E+01
   1.3210 3.9628E+01
   1.3220 3.9580E+01
   1.3230 3.9542E+01
   1.3240 3.9590E+01
   1.3250 3.9436E+01
   1.3260 3.9337E+01
   1.3270 3.9125E+01
   1.3280 3.9138E+01
   1.3290 3.8424E+01
   1.3300 3.8710E+01
   1.3310 3.8919E+01
   1.3320 3.8387E+01
   1.3330 3.8758E+01
   1.3340 3.8914E+01
   1.3350 3.8742E+01
   1.3360 3.8625E+01
   1.3370 3.8592E+01
   1.3380 3.8354E+01
   1.3390 3.7935E+01
   1.3400 3.7877E+01
   1.3410 3.8208E+01
   1.3420 3.8165E+01
   1.3430 3.8143E+01
   1.3440 3.8148E+01
   1.3450 3.8035E+01
   1.3460 3.7841E+01
   1.3470 3.7876E+01
   1.3480 3.7865E+01
   1.3490 3.7704E+01
   1.3500 3.7284E+01
   1.3510 3.7466E+01
   1.3520 3.7625E+01
   1.3530 3.7545E+01
   1.3540 3.7428E+01
   1.3550 3.6881E+01
   1.3560 3.6801E+01
   1.3570 3.6614E+01
   1.3580 3.7101E+01
   1.3590 3.7039E+01
   1.3600 3.6557E+01
   1.3610 3.6961E+01
   1.3620 3.6991E+01
   1.3630 3.6370E+01
   1.3640 3.6674E+01
   1.3650 3.6706E+01
   1.3660 3.6678E+01
   1.3670 3.6357E+01
   1.3680 3.6317E+01
   1.3690 3.5927E+01
   1.3700 3.5882E+01
   1.3710 3.5916E+01
   1.3720 3.6275E+01
   1.3730 3.6291E+01
   1.3740 3.6173E+01
   1.3750 3.5699E+01
   1.3760 3.5433E+01
   1.3770 3.5766E+01
   1.3780 3.5869E+01
   1.3790 3.6063E+01
   1.3800 3.5841E+01
   1.3810 3.5782E+01
   1.3820 3.5433E+01
   1.3830 3.5569E+01
   1.3840 3.5627E+01
   1.3850 3.5465E+01
   1.3860 3.5514E+01
   1.3870 3.5373E+01
   1.3880 3.5425E+01
   1.3890 3.5348E+01
   1.3900 3.4988E+01
   1.3910 3.5231E+01
   1.3920 3.5306E+01
   1.3930 3.5135E+01
   1.3940 3.4922E+01
   1.3950 3.4856E+01
   1.3960 3.4939E+01
   1.3970 3.4975E+01
   1.3980 3.4929E+01
   1.3990 3.4708E+01
   1.4000 3.4125E+01
   1.4010 3.4205E+01
   1.4020 3.4479E+01
   1.4030 3.4323E+01
   1.4040 3.4291E+01
   1.4050 3.4234E+01
   1.4060 3.4257E+01
   1.4070 3.4197E+01
   1.4080 3.4236E+01
   1.4090 3.4257E+01
   1.4100 3.4164E+01
   1.4110 3.3677E+01
   1.4120 3.3103E+01
   1.4130 3.3487E+01
   1.4140 3.3783E+01
   1.4150 3.3835E+01
   1.4160 3.3766E+01
   1.4170 3.3755E+01
   1.4180 3.3757E+01
   1.4190 3.3504E+01
   1.4200 3.3398E+01
   1.4210 3.3355E+01
   1.4220 3.2841E+01
   1.4230 3.2967E+01
   1.4240 3.2978E+01
   1.4250 3.3044E+01
   1.4260 3.2409E+01
   1.4270 3.2592E+01
   1.4280 3.2876E+01
   1.4290 3.2273E+01
   1.4300 3.2296E+01
   1.4310 3.2653E+01
   1.4320 3.2931E+01
   1.4330 3.2908E+01
   1.4340 3.2621E+01
   1.4350 3.2772E+01
   1.4360 3.2731E+01
   1.4370 3.2665E+01
   1.4380 3.2730E+01
   1.4390 3.2590E+01
   1.4400 3.1455E+01
   1.4410 3.1486E+01
   1.4420 3.1766E+01
   1.4430 3.1715E+01
   1.4440 3.1870E+01
   1.4450 3.1971E+01
   1.4460 3.2091E+01
   1.4470 3.1920E+01
   1.4480 3.2081E+01
   1.4490 3.2035E+01
   1.4500 3.1752E+01
   1.4510 3.1275E+01
   1.4520 3.1461E+01
   1.4530 3.1608E+01
   1.4540 3.1241E+01
   1.4550 3.1144E+01
   1.4560 3.1121E+01
   1.4570 3.1378E+01
   1.4580 3.1607E+01
   1.4590 3.1514E+01
   1.4600 3.1417E+01
   1.4610 3.1339E+01
   1.4620 3.1088E+01
   1.4630 3.0961E+01
   1.4640 3.0938E+01
   1.4650 3.1081E+01
   1.4660 3.0857E+01
   1.4670 3.1125E+01
   1.4680 3.0863E+01
   1.4690 3.0942E+01
   1.4700 3.0846E+01
   1.4710 3.0542E+01
   1.4720 3.0556E+01
   1.4730 3.0277E+01
   1.4740 2.9840E+01
   1.4750 3.0138E+01
   1.4760 3.0311E+01
   1.4770 3.0196E+01
   1.4780 3.0213E+01
   1.4790 3.0393E+01
   1.4800 3.0437E+01
   1.4810 3.0173E+01
   1.4820 3.0301E+01
   1.4830 3.0008E+01
   1.4840 3.0134E+01
   1.4850 3.0289E+01
   1.4860 3.0209E+01
   1.4870 2.9425E+01
   1.4880 2.7904E+01
   1.4890 2.9295E+01
   1.4900 3.0105E+01
   1.4910 2.9941E+01
   1.4920 2.9949E+01
   1.4930 2.9969E+01
   1.4940 2.9929E+01
   1.4950 2.9759E+01
   1.4960 2.9261E+01
   1.4970 2.9630E+01
   1.4980 2.9679E+01
   1.4990 2.9698E+01
   1.5000 2.9720E+01
   1.5010 2.9608E+01
   1.5020 2.8954E+01
   1.5030 2.7720E+01
   1.5040 2.7790E+01
   1.5050 2.7312E+01
   1.5060 2.8182E+01
   1.5070 2.9033E+01
   1.5080 2.8874E+01
   1.5090 2.8828E+01
   1.5100 2.9217E+01
   1.5110 2.9199E+01
   1.5120 2.8912E+01
   1.5130 2.8547E+01
   1.5140 2.8504E+01
   1.5150 2.8697E+01
   1.5160 2.8632E+01
   1.5170 2.8555E+01
   1.5180 2.8736E+01
   1.5190 2.8552E+01
   1.5200 2.8605E+01
   1.5210 2.8032E+01
   1.5220 2.7847E+01
   1.5230 2.8208E+01
   1.5240 2.8214E+01
   1.5250 2.7926E+01
   1.5260 2.8414E+01
   1.5270 2.8319E+01
   1.5280 2.8294E+01
   1.5290 2.7996E+01
   1.5300 2.7125E+01
   1.5310 2.7914E+01
   1.5320 2.8091E+01
   1.5330 2.7867E+01
   1.5340 2.7420E+01
   1.5350 2.7650E+01
   1.5360 2.7929E+01
   1.5370 2.7818E+01
   1.5380 2.7413E+01
   1.5390 2.7413E+01
   1.5400 2.6897E+01
   1.5410 2.7061E+01
   1.5420 2.7307E+01
   1.5430 2.7451E+01
   1.5440 2.7508E+01
   1.5450 2.7507E+01
   1.5460 2.7514E+01
   1.5470 2.7214E+01
   1.5480 2.6651E+01
   1.5490 2.6934E+01
   1.5500 2.6771E+01
   1.5510 2.6901E+01
   1.5520 2.7085E+01
   1.5530 2.6819E+01
   1.5540 2.6369E+01
   1.5550 2.6428E+01
   1.5560 2.6366E+01
   1.5570 2.6631E+01
   1.5580 2.6650E+01
   1.5590 2.6477E+01
   1.5600 2.6411E+01
   1.5610 2.6681E+01
   1.5620 2.6510E+01
   1.5630 2.6437E+01
   1.5640 2.6224E+01
   1.5650 2.6338E+01
   1.5660 2.6160E+01
   1.5670 2.6077E+01
   1.5680 2.5982E+01
   1.5690 2.5957E+01
   1.5700 2.5905E+01
   1.5710 2.6209E+01
   1.5720 2.6204E+01
   1.5730 2.5936E+01
   1.5740 2.5763E+01
   1.5750 2.4954E+01
   1.5760 2.5039E+01
   1.5770 2.4303E+01
   1.5780 2.5226E+01
   1.5790 2.5684E+01
   1.5800 2.5877E+01
   1.5810 2.5668E+01
   1.5820 2.5264E+01
   1.5830 2.5322E+01
   1.5840 2.5385E+01
   1.5850 2.5503E+01
   1.5860 2.5410E+01
   1.5870 2.5107E+01
   1.5880 2.4395E+01
   1.5890 2.3543E+01
   1.5900 2.3681E+01
   1.5910 2.3997E+01
   1.5920 2.4946E+01
   1.5930 2.5230E+01
   1.5940 2.5318E+01
   1.5950 2.5147E+01
   1.5960 2.4639E+01
   1.5970 2.4804E+01
   1.5980 2.5141E+01
   1.5990 2.4812E+01
   1.6000 2.4798E+01
   1.6010 2.4542E+01
   1.6020 2.4539E+01
   1.6030 2.4657E+01
   1.6040 2.4635E+01
   1.6050 2.4530E+01
   1.6060 2.4513E+01
   1.6070 2.4432E+01
   1.6080 2.4580E+01
   1.6090 2.4244E+01
   1.6100 2.3527E+01
   1.6110 2.3729E+01
   1.6120 2.4033E+01
   1.6130 2.4163E+01
   1.6140 2.4173E+01
   1.6150 2.3863E+01
   1.6160 2.3319E+01
   1.6170 2.3662E+01
   1.6180 2.4025E+01
   1.6190 2.3993E+01
   1.6200 2.3396E+01
   1.6210 2.3360E+01
   1.6220 2.3661E+01
   1.6230 2.3948E+01
   1.6240 2.4064E+01
   1.6250 2.3794E+01
   1.6260 2.3817E+01
   1.6270 2.3937E+01
   1.6280 2.3997E+01
   1.6290 2.3936E+01
   1.6300 2.3588E+01
   1.6310 2.3677E+01
   1.6320 2.3576E+01
   1.6330 2.3387E+01
   1.6340 2.3234E+01
   1.6350 2.3457E+01
   1.6360 2.3247E+01
   1.6370 2.2865E+01
   1.6380 2.2424E+01
   1.6390 2.2129E+01
   1.6400 2.2378E+01
   1.6410 2.2265E+01
   1.6420 2.2338E+01
   1.6430 2.2554E+01
   1.6440 2.2477E+01
   1.6450 2.2531E+01
   1.6460 2.2676E+01
   1.6470 2.2767E+01
   1.6480 2.2678E+01
   1.6490 2.2538E+01
   1.6500 2.2637E+01
   1.6510 2.2426E+01
   1.6520 2.2508E+01
   1.6530 2.2501E+01
   1.6540 2.2563E+01
   1.6550 2.2451E+01
   1.6560 2.2573E+01
   1.6570 2.2549E+01
   1.6580 2.2506E+01
   1.6590 2.2396E+01
   1.6600 2.2302E+01
   1.6610 2.2384E+01
   1.6620 2.2309E+01
   1.6630 2.2162E+01
   1.6640 2.2109E+01
   1.6650 2.2000E+01
   1.6660 2.1895E+01
   1.6670 2.2034E+01
   1.6680 2.1608E+01
   1.6690 2.1845E+01
   1.6700 2.2099E+01
   1.6710 2.1848E+01
   1.6720 2.1338E+01
   1.6730 2.1472E+01
   1.6740 2.1730E+01
   1.6750 2.1353E+01
   1.6760 2.1237E+01
   1.6770 2.1373E+01
   1.6780 2.1325E+01
   1.6790 2.0998E+01
   1.6800 2.0449E+01
   1.6810 1.9847E+01
   1.6820 2.0208E+01
   1.6830 2.0701E+01
   1.6840 2.1039E+01
   1.6850 2.1104E+01
   1.6860 2.0897E+01
   1.6870 2.0883E+01
   1.6880 2.0869E+01
   1.6890 2.0819E+01
   1.6900 2.0729E+01
   1.6910 2.0944E+01
   1.6920 2.1026E+01
   1.6930 2.0952E+01
   1.6940 2.0897E+01
   1.6950 2.0867E+01
   1.6960 2.0815E+01
   1.6970 2.0765E+01
   1.6980 2.0736E+01
   1.6990 2.0643E+01
   1.7000 2.0479E+01
   1.7010 2.0441E+01
   1.7020 2.0227E+01
   1.7030 2.0211E+01
   1.7040 2.0408E+01
   1.7050 2.0429E+01
   1.7100 1.9809E+01
   1.7150 1.9997E+01
   1.7200 1.9720E+01
   1.7250 1.9382E+01
   1.7300 1.9297E+01
   1.7350 1.8326E+01
   1.7400 1.8485E+01
   1.7450 1.8650E+01
   1.7500 1.8489E+01
   1.7550 1.8491E+01
   1.7600 1.8231E+01
   1.7650 1.8080E+01
   1.7700 1.7877E+01
   1.7750 1.7705E+01
   1.7800 1.7501E+01
   1.7850 1.7317E+01
   1.7900 1.7235E+01
   1.7950 1.7046E+01
   1.8000 1.6898E+01
   1.8050 1.6674E+01
   1.8100 1.6619E+01
   1.8150 1.5958E+01
   1.8200 1.5470E+01
   1.8250 1.6010E+01
   1.8300 1.5962E+01
   1.8350 1.5754E+01
   1.8400 1.5531E+01
   1.8450 1.5246E+01
   1.8500 1.5264E+01
   1.8550 1.5125E+01
   1.8600 1.4884E+01
   1.8650 1.4755E+01
   1.8700 1.4626E+01
   1.8750 1.3541E+01
   1.8800 1.4266E+01
   1.8850 1.4305E+01
   1.8900 1.4094E+01
   1.8950 1.3631E+01
   1.9000 1.3809E+01
   1.9050 1.3788E+01
   1.9100 1.3609E+01
   1.9150 1.3508E+01
   1.9200 1.3393E+01
   1.9250 1.3347E+01
   1.9300 1.3009E+01
   1.9350 1.3051E+01
   1.9400 1.2799E+01
   1.9450 1.2008E+01
   1.9500 1.2329E+01
   1.9550 1.2634E+01
   1.9600 1.2514E+01
   1.9650 1.2208E+01
   1.9700 1.2204E+01
   1.9750 1.2015E+01
   1.9800 1.1806E+01
   1.9850 1.1788E+01
   1.9900 1.1902E+01
   1.9950 1.1523E+01
   2.0000 1.1505E+01
   2.0050 1.1366E+01
   2.0100 1.1463E+01
   2.0150 1.1405E+01
   2.0200 1.1062E+01
   2.0250 1.1056E+01
   2.0300 1.0824E+01
   2.0350 1.0786E+01
   2.0400 1.0694E+01
   2.0450 1.0758E+01
   2.0500 1.0568E+01
   2.0550 1.0407E+01
   2.0600 1.0251E+01
   2.0650 1.0187E+01
   2.0700 1.0076E+01
   2.0750 1.0128E+01
   2.0800 9.9115E+00
   2.0850 9.8280E+00
   2.0900 9.8002E+00
   2.0950 9.6222E+00
   2.1000 9.6018E+00
   2.1050 9.6480E+00
   2.1100 9.4918E+00
   2.1150 9.4156E+00
   2.1200 9.2550E+00
   2.1250 9.2089E+00
   2.1300 9.2556E+00
   2.1350 9.1070E+00
   2.1400 9.1366E+00
   2.1450 9.0191E+00
   2.1500 8.9653E+00
   2.1550 8.9100E+00
   2.1600 8.7365E+00
   2.1650 8.1981E+00
   2.1700 8.3926E+00
   2.1750 8.5133E+00
   2.1800 8.3862E+00
   2.1850 8.4069E+00
   2.1900 8.2490E+00
   2.1950 8.2982E+00
   2.2000 8.1857E+00
   2.2050 8.0391E+00
   2.2100 7.9872E+00
   2.2150 7.9548E+00
   2.2200 7.9182E+00
   2.2250 7.8357E+00
   2.2300 7.7586E+00
   2.2350 7.7401E+00
   2.2400 7.5896E+00
   2.2450 7.5585E+00
   2.2500 7.4831E+00
   2.2550 7.3874E+00
   2.2600 7.3595E+00
   2.2650 7.2822E+00
   2.2700 7.2595E+00
   2.2750 7.2070E+00
   2.2800 7.1020E+00
   2.2850 7.0529E+00
   2.2900 7.0351E+00
   2.2950 6.8661E+00
   2.3000 6.8746E+00
   2.3050 6.8604E+00
   2.3100 6.8104E+00
   2.3150 6.7385E+00
   2.3200 6.6683E+00
   2.3250 6.5840E+00
   2.3300 6.5509E+00
   2.3350 6.4780E+00
   2.3400 6.4465E+00
   2.3450 6.4301E+00
   2.3500 6.3407E+00
   2.3550 6.2547E+00
   2.3600 6.2470E+00
   2.3650 6.2397E+00
   2.3700 6.1739E+00
   2.3750 6.0981E+00
   2.3800 6.1188E+00
   2.3850 5.9299E+00
   2.3900 5.9953E+00
   2.3950 5.9327E+00
   2.4000 5.8928E+00
   2.4050 5.8652E+00
   2.4100 5.8253E+00
   2.4150 5.6019E+00
   2.4200 5.6772E+00
   2.4250 5.6517E+00
   2.4300 5.6411E+00
   2.4350 5.5630E+00
   2.4400 5.5474E+00
   2.4450 5.4745E+00
   2.4500 5.3816E+00
   2.4550 5.3319E+00
   2.4600 5.3491E+00
   2.4650 5.3505E+00
   2.4700 5.2600E+00
   2.4750 5.2571E+00
   2.4800 5.1237E+00
   2.4850 5.1007E+00
   2.4900 5.1332E+00
   2.4950 5.1032E+00
   2.5000 5.1127E+00
   2.5050 5.0744E+00
   2.5100 5.0021E+00
   2.5150 4.9738E+00
   2.5200 4.9492E+00
   2.5250 4.9202E+00
   2.5300 4.8859E+00
   2.5350 4.8220E+00
   2.5400 4.7647E+00
   2.5450 4.7448E+00
   2.5500 4.7175E+00
   2.5550 4.6770E+00
   2.5600 4.6205E+00
   2.5650 4.6136E+00
   2.5700 4.5635E+00
   2.5750 4.5543E+00
   2.5800 4.5071E+00
   2.5850 4.4023E+00
   2.5900 4.4500E+00
   2.5950 4.4007E+00
   2.6000 4.3837E+00
   2.6050 4.3844E+00
   2.6100 4.3583E+00
   2.6150 4.3143E+00
   2.6200 4.2388E+00
   2.6250 4.0110E+00
   2.6300 4.1309E+00
   2.6350 4.1591E+00
   2.6400 4.0911E+00
   2.6450 4.1338E+00
   2.6500 4.1133E+00
   2.6550 4.0603E+00
   2.6600 4.0517E+00
   2.6650 3.9581E+00
   2.6700 3.9814E+00
   2.6750 3.9465E+00
   2.6800 3.9137E+00
   2.6850 3.8993E+00
   2.6900 3.8723E+00
   2.6950 3.8547E+00
   2.7000 3.8378E+00
   2.7050 3.8084E+00
   2.7100 3.7931E+00
   2.7150 3.7577E+00
   2.7200 3.7303E+00
   2.7250 3.7161E+00
   2.7300 3.6798E+00
   2.7350 3.6599E+00
   2.7400 3.6399E+00
   2.7450 3.6116E+00
   2.7500 3.5812E+00
   2.7550 3.5367E+00
   2.7600 3.4938E+00
   2.7650 3.5080E+00
   2.7700 3.4844E+00
   2.7750 3.4675E+00
   2.7800 3.4518E+00
   2.7850 3.4285E+00
   2.7900 3.4035E+00
   2.7950 3.3815E+00
   2.8000 3.3549E+00
   2.8050 3.3423E+00
   2.8100 3.3137E+00
   2.8150 3.2907E+00
   2.8200 3.2696E+00
   2.8250 3.2586E+00
   2.8300 3.2261E+00
   2.8350 3.2076E+00
   2.8400 3.1885E+00
   2.8450 3.1711E+00
   2.8500 3.1478E+00
   2.8550 3.1180E+00
   2.8600 3.0981E+00
   2.8650 3.0743E+00
   2.8700 3.0274E+00
   2.8750 3.0047E+00
   2.8800 3.0115E+00
   2.8850 2.9976E+00
   2.8900 2.9876E+00
   2.8950 2.9616E+00
   2.9000 2.9396E+00
   2.9050 2.9203E+00
   2.9100 2.9039E+00
   2.9150 2.8822E+00
   2.9200 2.8636E+00
   2.9250 2.8487E+00
   2.9300 2.8231E+00
   2.9350 2.8110E+00
   2.9400 2.7913E+00
   2.9450 2.7682E+00
   2.9500 2.7533E+00
   2.9550 2.7402E+00
   2.9600 2.7235E+00
   2.9650 2.7074E+00
   2.9700 2.6912E+00
   2.9750 2.6743E+00
   2.9800 2.6542E+00
   2.9850 2.6383E+00
   2.9900 2.6209E+00
   2.9950 2.6132E+00
   3.0000 2.5924E+00
   3.0050 2.5869E+00
   3.0100 2.5705E+00
   3.0150 2.5503E+00
   3.0200 2.5347E+00
   3.0250 2.5198E+00
   3.0300 2.5004E+00
   3.0350 2.4637E+00
   3.0400 2.4200E+00
   3.0450 2.4423E+00
   3.0500 2.4380E+00
   3.0550 2.4221E+00
   3.0600 2.4130E+00
   3.0650 2.3911E+00
   3.0700 2.3812E+00
   3.0750 2.3718E+00
   3.0800 2.3529E+00
   3.0850 2.3350E+00
   3.0900 2.3251E+00
   3.0950 2.3102E+00
   3.1000 2.2943E+00
   3.1050 2.2827E+00
   3.1100 2.2664E+00
   3.1150 2.2267E+00
   3.1200 2.2356E+00
   3.1250 2.2247E+00
   3.1300 2.2115E+00
   3.1350 2.2039E+00
   3.1400 2.1899E+00
   3.1450 2.1737E+00
   3.1500 2.1507E+00
   3.1550 2.1452E+00
   3.1600 2.1346E+00
   3.1650 2.1214E+00
   3.1700 2.1045E+00
   3.1750 2.1010E+00
   3.1800 2.0831E+00
   3.1850 2.0720E+00
   3.1900 2.0621E+00
   3.1950 2.0518E+00
   3.2000 2.0325E+00
   3.2050 2.0260E+00
   3.2100 2.0131E+00
   3.2150 1.9982E+00
   3.2200 1.9912E+00
   3.2250 1.9783E+00
   3.2300 1.9674E+00
   3.2350 1.9535E+00
   3.2400 1.9400E+00
   3.2450 1.9276E+00
   3.2500 1.9237E+00
   3.2550 1.9097E+00
   3.2600 1.8978E+00
   3.2650 1.8832E+00
   3.2700 1.8740E+00
   3.2750 1.8640E+00
   3.2800 1.8501E+00
   3.2850 1.8349E+00
   3.2900 1.8228E+00
   3.2950 1.7836E+00
   3.3000 1.7811E+00
   3.3050 1.7908E+00
   3.3100 1.7855E+00
   3.3150 1.7736E+00
   3.3200 1.7403E+00
   3.3250 1.7547E+00
   3.3300 1.7468E+00
   3.3350 1.7362E+00
   3.3400 1.7269E+00
   3.3450 1.7214E+00
   3.3500 1.7090E+00
   3.3550 1.7001E+00
   3.3600 1.6931E+00
   3.3650 1.6782E+00
   3.3700 1.6638E+00
   3.3750 1.6603E+00
   3.3800 1.6514E+00
   3.3850 1.6434E+00
   3.3900 1.6348E+00
   3.3950 1.6156E+00
   3.4000 1.5938E+00
   3.4050 1.6022E+00
   3.4100 1.5948E+00
   3.4150 1.5799E+00
   3.4200 1.5762E+00
   3.4250 1.5689E+00
   3.4300 1.5600E+00
   3.4350 1.5540E+00
   3.4400 1.5454E+00
   3.4450 1.5391E+00
   3.4500 1.5312E+00
   3.4550 1.5212E+00
   3.4600 1.5143E+00
   3.4650 1.5053E+00
   3.4700 1.4944E+00
   3.4750 1.4860E+00
   3.4800 1.4805E+00
   3.4850 1.4725E+00
   3.4900 1.4636E+00
   3.4950 1.4547E+00
   3.5000 1.4487E+00
   3.5050 1.4417E+00
   3.5100 1.4338E+00
   3.5150 1.4249E+00
   3.5200 1.4169E+00
   3.5250 1.4090E+00
   3.5300 1.4020E+00
   3.5350 1.3911E+00
   3.5400 1.3841E+00
   3.5450 1.3811E+00
   3.5500 1.3737E+00
   3.5550 1.3603E+00
   3.5600 1.3523E+00
   3.5650 1.3503E+00
   3.5700 1.3404E+00
   3.5750 1.3349E+00
   3.5800 1.3255E+00
   3.5850 1.3195E+00
   3.5900 1.3151E+00
   3.5950 1.3056E+00
   3.6000 1.2987E+00
   3.6050 1.2947E+00
   3.6100 1.2861E+00
   3.6150 1.2818E+00
   3.6200 1.2758E+00
   3.6250 1.2659E+00
   3.6300 1.2609E+00
   3.6350 1.2539E+00
   3.6400 1.2460E+00
   3.6450 1.2354E+00
   3.6500 1.2291E+00
   3.6550 1.2187E+00
   3.6600 1.2162E+00
   3.6650 1.2099E+00
   3.6700 1.2048E+00
   3.6750 1.1968E+00
   3.6800 1.1814E+00
   3.6850 1.1804E+00
   3.6900 1.1778E+00
   3.6950 1.1635E+00
   3.7000 1.1461E+00
   3.7050 1.1516E+00
   3.7100 1.1456E+00
   3.7150 1.1437E+00
   3.7200 1.1427E+00
   3.7250 1.1367E+00
   3.7300 1.1294E+00
   3.7350 1.1153E+00
   3.7400 1.0875E+00
   3.7450 1.0860E+00
   3.7500 1.0970E+00
   3.7550 1.0940E+00
   3.7600 1.0930E+00
   3.7650 1.0883E+00
   3.7700 1.0860E+00
   3.7750 1.0756E+00
   3.7800 1.0731E+00
   3.7850 1.0671E+00
   3.7900 1.0612E+00
   3.7950 1.0562E+00
   3.8000 1.0522E+00
   3.8050 1.0469E+00
   3.8100 1.0423E+00
   3.8150 1.0363E+00
   3.8200 1.0334E+00
   3.8250 1.0287E+00
   3.8300 1.0254E+00
   3.8350 1.0170E+00
   3.8400 1.0145E+00
   3.8450 1.0089E+00
   3.8500 1.0065E+00
   3.8550 9.9826E-01
   3.8600 9.9273E-01
   3.8650 9.8587E-01
   3.8700 9.8195E-01
   3.8750 9.7822E-01
   3.8800 9.7544E-01
   3.8850 9.6605E-01
   3.8900 9.6466E-01
   3.8950 9.5735E-01
   3.9000 9.5388E-01
   3.9050 9.5169E-01
   3.9100 9.4642E-01
   3.9150 9.4290E-01
   3.9200 9.3659E-01
   3.9250 9.3400E-01
   3.9300 9.2731E-01
   3.9350 9.2327E-01
   3.9400 9.1860E-01
   3.9450 9.1413E-01
   3.9500 9.0628E-01
   3.9550 9.0047E-01
   3.9600 8.9688E-01
   3.9650 8.9635E-01
   3.9700 8.8962E-01
   3.9750 8.8730E-01
   3.9800 8.8239E-01
   3.9850 8.7523E-01
   3.9900 8.6952E-01
   3.9950 8.6395E-01
   4.0000 8.6162E-01
   4.0200 7.9458E-01
   4.0400 7.7864E-01
   4.0600 7.6300E-01
   4.0800 7.4785E-01
   4.1000 7.3301E-01
   4.1200 7.1866E-01
   4.1400 7.0451E-01
   4.1600 6.9076E-01
   4.1800 6.7731E-01
   4.2000 6.6426E-01
   4.2200 6.5141E-01
   4.2400 6.3895E-01
   4.2600 6.2670E-01
   4.2800 6.1484E-01
   4.3000 6.0318E-01
   4.3200 5.9193E-01
   4.3400 5.8077E-01
   4.3600 5.7001E-01
   4.3800 5.5935E-01
   4.4000 5.4908E-01
   4.4200 5.3892E-01
   4.4400 5.2916E-01
   4.4600 5.1949E-01
   4.4800 5.1003E-01
   4.5000 5.0076E-01
   4.5200 4.9179E-01
   4.5400 4.8293E-01
   4.5600 4.7436E-01
   4.5800 4.6599E-01
   4.6000 4.5772E-01
   4.6200 4.4965E-01
   4.6400 4.4178E-01
   4.6600 4.3401E-01
   4.6800 4.2653E-01
   4.7000 4.1916E-01
   4.7200 4.1189E-01
   4.7400 4.0491E-01
   4.7600 3.9794E-01
   4.7800 3.9116E-01
   4.8000 3.8449E-01
   4.8200 3.7801E-01
   4.8400 3.7173E-01
   4.8600 3.6546E-01
   4.8800 3.5938E-01
   4.9000 3.5340E-01
   4.9200 3.4752E-01
   4.9400 3.4184E-01
   4.9600 3.3626E-01
   4.9800 3.3078E-01
   5.0000 3.2540E-01
   5.0500 3.1853E-01
   5.1000 3.0667E-01
   5.1500 2.9532E-01
   5.2000 2.8436E-01
   5.2500 2.7409E-01
   5.3000 2.6423E-01
   5.3500 2.5486E-01
   5.4000 2.4580E-01
   5.4500 2.3713E-01
   5.5000 2.2896E-01
   5.5500 2.2099E-01
   5.6000 2.1352E-01
   5.6500 2.0634E-01
   5.7000 1.9937E-01
   5.7500 1.9279E-01
   5.8000 1.8642E-01
   5.8500 1.8034E-01
   5.9000 1.7446E-01
   5.9500 1.6888E-01
   6.0000 1.6350E-01
   6.0500 1.5832E-01
   6.1000 1.5334E-01
   6.1500 1.4855E-01
   6.2000 1.4397E-01
   6.2500 1.3959E-01
   6.3000 1.3530E-01
   6.3500 1.3132E-01
   6.4000 1.2733E-01
   6.4500 1.2365E-01
   6.5000 1.1996E-01
   6.5500 1.1637E-01
   6.6000 1.1298E-01
   6.6500 1.0980E-01
   6.7000 1.0661E-01
   6.7500 1.0362E-01
   6.8000 1.0073E-01
   6.8500 9.7890E-02
   6.9000 9.5170E-02
   6.9500 9.2560E-02
   7.0000 9.0029E-02
   7.0500 8.7578E-02
   7.1000 8.5217E-02
   7.1500 8.2935E-02
   7.2000 8.0723E-02
   7.2500 7.8591E-02
   7.3000 7.6529E-02
   7.3500 7.4536E-02
   7.4000 7.2603E-02
   7.4500 7.0740E-02
   7.5000 6.8927E-02
   7.5500 6.7183E-02
   7.6000 6.5479E-02
   7.6500 6.3836E-02
   7.7000 6.2251E-02
   7.7500 6.0717E-02
   7.8000 5.9222E-02
   7.8500 5.7778E-02
   7.9000 5.6373E-02
   7.9500 5.5018E-02
   8.0000 5.3693E-02
   8.0500 5.2417E-02
   8.1000 5.1182E-02
   8.1500 4.9966E-02
   8.2000 4.8801E-02
   8.2500 4.7665E-02
   8.3000 4.6559E-02
   8.3500 4.5493E-02
   8.4000 4.4457E-02
   8.4500 4.3450E-02
   8.5000 4.2474E-02
   8.5500 4.1508E-02
   8.6000 4.0581E-02
   8.6500 3.9684E-02
   8.7000 3.8807E-02
   8.7500 3.7951E-02
   8.8000 3.7134E-02
   8.8500 3.6327E-02
   8.9000 3.5539E-02
   8.9500 3.4782E-02
   9.0000 3.4045E-02
   9.0500 3.3318E-02
   9.1000 3.2610E-02
   9.1500 3.1933E-02
   9.2000 3.1265E-02
   9.2500 3.0618E-02
   9.3000 2.9990E-02
   9.3500 2.9372E-02
   9.4000 2.8764E-02
   9.4500 2.8186E-02
   9.5000 2.7609E-02
   9.5500 2.7061E-02
   9.6000 2.6513E-02
   9.6500 2.5985E-02
   9.7000 2.5476E-02
   9.7500 2.4978E-02
   9.8000 2.4480E-02
   9.8500 2.4012E-02
   9.9000 2.3544E-02
   9.9500 2.3085E-02
  10.0000 2.2637E-02
  11.0000 1.5344E-02
  12.0000 1.0810E-02
  13.0000 7.8272E-03
  14.0000 5.8097E-03
  15.0000 4.4018E-03
  16.0000 3.3886E-03
  17.0000 2.6562E-03
  18.0000 2.1122E-03
  19.0000 1.6988E-03
  20.0000 1.3799E-03
  25.0000 5.6781E-04
  30.0000 2.7499E-04
  35.0000 1.4826E-04
  40.0000 8.7379E-05
  50.0000 3.5948E-05
  60.0000 1.7366E-05
  80.0000 5.5187E-06
 100.0000 2.2717E-06
 120.0000 1.0980E-06
 150.0000 4.5144E-07
 200.0000 1.4357E-07
 250.0000 5.8943E-08
 300.0000 2.7688E-08
 400.0000 9.4792E-09
1000.0000 3.1723E-10
